Block no	Trial no	Direction	Audio Direction	Speed	Multimodal Synchrony	Motion	Accuracy	Response time	Congruency
1	1	0	0	3	async	upright	0	0.047	congruent
1	2	1	0	3	async	upright	0	0.015	incongruent
1	3	0	1	3	sync	upright	1	1.687	incongruent
1	4	1	1	1	async	scrambled	1	1.094	congruent
1	5	0	1	3	async	upright	1	1.442	incongruent
1	6	1	0	2	async	scrambled	1	1.192	incongruent
1	7	1	1	1	async	upright	1	1.246	congruent
1	8	0	0	1	async	upright	1	1.465	congruent
1	9	0	0	1	async	upright	1	1.510	congruent
1	10	0	0	3	sync	upright	1	1.461	congruent
1	11	1	1	3	sync	scrambled	1	1.842	congruent
1	12	0	0	2	async	upright	1	1.402	congruent
1	13	1	1	1	sync	upright	1	2.054	congruent
1	14	1	0	1	async	scrambled	1	1.273	incongruent
1	15	1	1	2	sync	upright	1	1.372	congruent
1	16	0	0	2	async	scrambled	1	1.041	congruent
1	17	1	1	3	sync	upright	1	1.110	congruent
1	18	0	1	2	async	scrambled	1	1.647	incongruent
1	19	1	1	1	sync	scrambled	1	1.726	congruent
1	20	0	0	1	sync	upright	1	0.939	congruent
1	21	1	0	2	async	scrambled	1	1.764	incongruent
1	22	0	1	3	sync	upright	1	1.175	incongruent
1	23	1	0	1	async	scrambled	1	1.692	incongruent
1	24	1	0	3	sync	upright	1	0.990	incongruent
1	25	1	0	2	sync	scrambled	1	1.442	incongruent
1	26	0	1	2	sync	upright	1	1.189	incongruent
1	27	1	1	3	sync	scrambled	1	1.505	congruent
1	28	0	0	3	async	scrambled	1	1.157	congruent
1	29	1	0	2	sync	scrambled	1	1.152	incongruent
1	30	0	0	2	async	scrambled	1	1.075	congruent
1	31	1	1	3	async	upright	0	0.807	congruent
1	32	1	1	3	async	upright	1	1.370	congruent
1	33	0	1	2	async	scrambled	1	1.747	incongruent
1	34	0	1	1	sync	scrambled	1	1.122	incongruent
1	35	0	1	2	sync	scrambled	1	1.632	incongruent
1	36	1	1	1	async	scrambled	1	1.304	congruent
1	37	0	0	3	sync	scrambled	1	1.974	congruent
1	38	1	1	2	async	scrambled	1	1.426	congruent
1	39	1	0	1	sync	upright	1	1.005	incongruent
1	40	0	1	3	async	upright	1	1.445	incongruent
1	41	1	1	1	async	upright	1	1.743	congruent
1	42	1	1	1	sync	upright	1	2.046	congruent
1	43	1	0	1	async	upright	1	1.484	incongruent
1	44	1	1	2	sync	scrambled	1	1.572	congruent
1	45	0	1	2	async	upright	1	1.432	incongruent
1	46	1	0	3	sync	upright	1	1.160	incongruent
1	47	1	1	3	async	scrambled	1	1.415	congruent
1	48	0	1	3	async	upright	1	1.064	incongruent
1	49	0	1	3	async	scrambled	1	1.186	incongruent
1	50	0	0	2	async	scrambled	1	1.230	congruent
1	51	0	1	3	sync	upright	1	1.639	incongruent
1	52	1	0	2	async	scrambled	1	1.503	incongruent
1	53	0	0	1	async	upright	1	1.442	congruent
1	54	0	0	2	async	upright	1	1.110	congruent
1	55	1	1	2	async	upright	1	1.443	congruent
1	56	0	0	3	async	scrambled	1	1.427	congruent
1	57	0	0	2	async	scrambled	1	1.021	congruent
1	58	0	0	2	async	scrambled	1	0.815	congruent
1	59	1	0	2	sync	upright	1	1.261	incongruent
1	60	1	0	2	async	scrambled	1	1.259	incongruent
1	61	0	0	1	sync	upright	1	1.803	congruent
1	62	1	1	2	async	upright	1	1.416	congruent
1	63	1	1	1	sync	upright	1	2.004	congruent
1	64	0	0	3	sync	scrambled	1	2.059	congruent
1	65	1	1	2	sync	scrambled	1	1.645	congruent
1	66	1	1	1	async	scrambled	1	1.206	congruent
1	67	1	0	2	async	upright	1	1.317	incongruent
1	68	0	0	2	sync	upright	1	1.291	congruent
1	69	0	1	1	async	upright	1	1.263	incongruent
1	70	0	0	1	sync	scrambled	1	1.611	congruent
1	71	1	0	3	sync	upright	1	1.874	incongruent
1	72	1	1	3	async	scrambled	1	1.349	congruent
1	73	1	1	1	async	scrambled	1	1.355	congruent
1	74	0	0	2	async	upright	1	0.979	congruent
1	75	0	0	3	sync	scrambled	1	1.615	congruent
1	76	0	1	1	async	scrambled	1	1.207	incongruent
1	77	1	0	1	sync	scrambled	1	1.269	incongruent
1	78	1	1	2	sync	scrambled	1	1.361	congruent
1	79	0	0	1	async	scrambled	1	1.586	congruent
1	80	1	0	2	async	scrambled	0	1.773	incongruent
2	1	0	1	2	sync	scrambled	1	1.540	incongruent
2	2	0	1	3	async	scrambled	1	1.326	incongruent
2	3	1	0	3	async	upright	1	1.103	incongruent
2	4	0	0	3	async	upright	1	0.835	congruent
2	5	1	1	2	async	upright	1	1.318	congruent
2	6	0	1	1	async	upright	1	1.259	incongruent
2	7	1	0	1	async	upright	1	1.506	incongruent
2	8	1	1	3	async	upright	1	1.274	congruent
2	9	1	0	3	sync	scrambled	1	1.086	incongruent
2	10	0	1	2	async	scrambled	0	1.187	incongruent
2	11	0	0	3	async	scrambled	1	1.060	congruent
2	12	1	1	3	async	scrambled	1	1.388	congruent
2	13	0	0	3	async	upright	1	0.998	congruent
2	14	1	0	3	sync	scrambled	1	1.255	incongruent
2	15	1	0	2	async	scrambled	1	1.454	incongruent
2	16	0	0	2	async	scrambled	1	1.074	congruent
2	17	1	0	1	sync	upright	1	1.199	incongruent
2	18	1	0	3	async	upright	1	1.000	incongruent
2	19	0	1	1	async	upright	1	1.386	incongruent
2	20	0	1	1	async	upright	1	1.356	incongruent
2	21	1	0	2	sync	upright	1	1.230	incongruent
2	22	0	1	3	async	scrambled	1	1.184	incongruent
2	23	0	0	3	sync	upright	1	1.200	congruent
2	24	1	1	3	sync	upright	1	1.162	congruent
2	25	0	1	1	sync	upright	1	1.853	incongruent
2	26	0	0	3	async	scrambled	1	1.153	congruent
2	27	0	1	2	sync	scrambled	1	1.183	incongruent
2	28	1	0	1	async	scrambled	1	1.266	incongruent
2	29	1	0	1	sync	scrambled	1	1.821	incongruent
2	30	1	1	3	sync	upright	1	1.217	congruent
2	31	0	1	3	sync	scrambled	1	0.911	incongruent
2	32	0	0	3	sync	upright	1	1.197	congruent
2	33	1	0	1	sync	scrambled	1	1.409	incongruent
2	34	0	1	3	sync	upright	1	1.143	incongruent
2	35	1	1	1	sync	scrambled	1	1.390	congruent
2	36	1	0	3	async	upright	0	0.802	incongruent
2	37	1	1	1	async	scrambled	1	1.422	congruent
2	38	0	0	3	sync	upright	1	1.604	congruent
2	39	0	0	2	async	upright	1	1.003	congruent
2	40	0	0	2	sync	scrambled	1	1.337	congruent
2	41	1	0	2	async	upright	1	1.315	incongruent
2	42	1	0	2	sync	upright	1	1.228	incongruent
2	43	1	1	2	sync	upright	1	1.285	congruent
2	44	0	0	2	async	upright	1	1.002	congruent
2	45	0	1	3	sync	upright	1	1.256	incongruent
2	46	1	0	2	sync	upright	1	1.044	incongruent
2	47	0	1	3	async	upright	1	1.062	incongruent
2	48	0	0	1	async	scrambled	1	1.562	congruent
2	49	1	1	3	sync	scrambled	1	1.315	congruent
2	50	1	0	3	async	upright	1	1.024	incongruent
2	51	1	0	3	async	scrambled	1	0.976	incongruent
2	52	1	0	3	sync	upright	1	1.047	incongruent
2	53	1	1	1	async	upright	1	1.331	congruent
2	54	0	0	3	sync	scrambled	1	1.167	congruent
2	55	0	0	2	async	scrambled	1	1.062	congruent
2	56	0	0	3	sync	upright	1	1.261	congruent
2	57	1	0	1	async	upright	1	1.393	incongruent
2	58	1	1	2	sync	upright	1	1.464	congruent
2	59	1	0	1	sync	upright	1	1.370	incongruent
2	60	0	1	2	async	upright	1	1.265	incongruent
2	61	0	1	1	async	scrambled	1	1.463	incongruent
2	62	0	0	1	sync	scrambled	1	1.472	congruent
2	63	0	1	1	sync	upright	1	1.663	incongruent
2	64	1	0	2	sync	upright	1	1.269	incongruent
2	65	0	1	1	sync	scrambled	1	1.573	incongruent
2	66	0	1	1	sync	scrambled	1	1.618	incongruent
2	67	0	0	2	async	upright	1	0.996	congruent
2	68	0	0	1	sync	upright	1	1.376	congruent
2	69	1	1	3	async	upright	1	1.393	congruent
2	70	1	0	2	async	upright	1	1.601	incongruent
2	71	1	1	2	sync	scrambled	1	1.429	congruent
2	72	0	0	2	async	scrambled	1	1.000	congruent
2	73	0	1	3	sync	scrambled	1	1.516	incongruent
2	74	1	1	3	sync	upright	1	1.291	congruent
2	75	1	0	3	sync	upright	1	1.018	incongruent
2	76	0	1	1	async	upright	1	1.241	incongruent
2	77	0	1	1	sync	upright	1	1.762	incongruent
2	78	1	1	3	sync	scrambled	1	1.144	congruent
2	79	0	0	1	sync	upright	1	1.485	congruent
2	80	0	0	2	async	scrambled	1	0.994	congruent
3	1	1	1	2	sync	upright	1	1.518	congruent
3	2	0	0	1	sync	upright	1	1.625	congruent
3	3	0	0	1	sync	scrambled	1	1.156	congruent
3	4	1	0	2	sync	scrambled	1	1.093	incongruent
3	5	0	0	1	sync	upright	1	0.991	congruent
3	6	1	1	1	sync	scrambled	1	1.468	congruent
3	7	0	1	2	sync	upright	1	0.894	incongruent
3	8	0	1	3	sync	upright	1	0.878	incongruent
3	9	0	1	3	sync	upright	1	0.873	incongruent
3	10	1	0	3	sync	upright	0	1.122	incongruent
3	11	1	0	2	async	upright	1	1.411	incongruent
3	12	0	1	2	sync	scrambled	1	1.481	incongruent
3	13	0	1	2	async	upright	1	1.244	incongruent
3	14	1	0	1	async	upright	1	1.473	incongruent
3	15	0	1	1	async	scrambled	1	1.409	incongruent
3	16	0	0	3	sync	scrambled	1	1.472	congruent
3	17	1	1	2	async	upright	1	1.368	congruent
3	18	1	1	2	sync	scrambled	1	1.478	congruent
3	19	0	1	2	sync	scrambled	1	1.510	incongruent
3	20	0	1	2	async	scrambled	1	1.897	incongruent
3	21	1	0	3	sync	scrambled	1	1.203	incongruent
3	22	1	0	3	sync	scrambled	1	1.664	incongruent
3	23	1	1	2	sync	scrambled	1	1.377	congruent
3	24	1	0	2	async	scrambled	1	1.320	incongruent
3	25	1	1	2	sync	upright	1	1.523	congruent
3	26	1	0	1	sync	scrambled	1	1.191	incongruent
3	27	0	0	1	sync	upright	1	1.221	congruent
3	28	0	1	2	async	upright	1	1.124	incongruent
3	29	1	1	1	async	upright	1	1.490	congruent
3	30	0	0	2	sync	scrambled	1	1.224	congruent
3	31	1	1	3	async	upright	1	1.208	congruent
3	32	0	0	1	sync	upright	1	0.980	congruent
3	33	1	1	1	sync	scrambled	1	1.166	congruent
3	34	1	0	1	sync	scrambled	1	1.072	incongruent
3	35	1	0	2	async	scrambled	0	1.639	incongruent
3	36	1	1	3	async	scrambled	1	1.108	congruent
3	37	1	1	1	async	upright	1	1.210	congruent
3	38	1	0	2	sync	upright	0	1.027	incongruent
3	39	1	1	3	sync	scrambled	1	1.224	congruent
3	40	0	0	3	async	scrambled	1	1.080	congruent
3	41	0	0	1	async	scrambled	1	1.263	congruent
3	42	1	1	2	async	scrambled	1	1.404	congruent
3	43	0	1	3	sync	scrambled	1	1.327	incongruent
3	44	1	1	3	sync	scrambled	1	1.253	congruent
3	45	0	0	2	sync	scrambled	1	1.255	congruent
3	46	1	1	3	async	scrambled	1	1.195	congruent
3	47	0	0	1	sync	scrambled	1	1.100	congruent
3	48	0	0	3	sync	scrambled	1	1.078	congruent
3	49	0	1	1	sync	upright	1	1.904	incongruent
3	50	1	1	3	sync	upright	1	1.286	congruent
3	51	0	0	3	sync	upright	1	1.183	congruent
3	52	1	1	1	async	upright	1	1.285	congruent
3	53	1	0	3	async	scrambled	1	0.989	incongruent
3	54	0	0	2	async	upright	1	1.044	congruent
3	55	0	0	3	async	scrambled	1	0.806	congruent
3	56	1	1	3	sync	scrambled	1	1.330	congruent
3	57	0	0	2	async	scrambled	1	0.893	congruent
3	58	0	0	3	sync	scrambled	1	1.436	congruent
3	59	1	0	3	async	scrambled	1	0.901	incongruent
3	60	0	0	3	async	upright	1	0.902	congruent
3	61	1	0	1	async	scrambled	1	1.529	incongruent
3	62	1	1	1	async	scrambled	1	1.254	congruent
3	63	1	0	2	async	upright	1	1.269	incongruent
3	64	0	0	3	sync	upright	1	1.533	congruent
3	65	1	0	1	async	scrambled	1	1.541	incongruent
3	66	0	0	2	sync	scrambled	1	1.475	congruent
3	67	1	1	1	sync	upright	1	1.808	congruent
3	68	1	1	1	async	upright	1	1.398	congruent
3	69	0	1	1	async	scrambled	1	1.619	incongruent
3	70	0	1	3	async	scrambled	1	1.291	incongruent
3	71	1	0	1	async	upright	1	1.444	incongruent
3	72	1	1	2	async	upright	1	1.415	congruent
3	73	0	1	1	sync	scrambled	1	1.840	incongruent
3	74	1	1	3	sync	scrambled	1	1.360	congruent
3	75	0	0	1	async	scrambled	1	1.516	congruent
3	76	0	1	3	sync	upright	1	1.388	incongruent
3	77	1	1	3	async	scrambled	1	1.423	congruent
3	78	0	0	3	sync	scrambled	1	1.272	congruent
3	79	1	1	3	async	upright	1	1.230	congruent
3	80	0	0	2	sync	upright	1	1.271	congruent
4	1	0	0	1	sync	scrambled	1	1.362	congruent
4	2	0	1	2	async	upright	1	1.119	incongruent
4	3	0	0	2	async	scrambled	1	1.034	congruent
4	4	1	1	1	sync	scrambled	1	1.529	congruent
4	5	0	1	3	sync	scrambled	1	1.248	incongruent
4	6	1	0	3	sync	scrambled	1	1.125	incongruent
4	7	1	0	1	sync	upright	1	1.122	incongruent
4	8	1	0	3	sync	scrambled	1	1.355	incongruent
4	9	1	0	1	sync	upright	1	1.069	incongruent
4	10	0	0	2	sync	scrambled	1	1.060	congruent
4	11	1	1	3	sync	upright	1	1.251	congruent
4	12	1	0	3	sync	scrambled	1	1.155	incongruent
4	13	1	0	2	async	scrambled	1	1.234	incongruent
4	14	0	0	2	async	upright	1	1.071	congruent
4	15	0	1	1	sync	upright	1	1.620	incongruent
4	16	0	0	2	sync	scrambled	1	1.270	congruent
4	17	0	1	1	sync	scrambled	1	1.459	incongruent
4	18	1	1	3	async	upright	1	1.037	congruent
4	19	0	1	3	async	upright	1	1.036	incongruent
4	20	1	0	2	sync	scrambled	1	1.458	incongruent
4	21	1	0	2	async	scrambled	1	1.453	incongruent
4	22	0	0	1	sync	scrambled	1	1.299	congruent
4	23	1	1	1	async	upright	1	1.269	congruent
4	24	0	0	3	sync	scrambled	1	1.247	congruent
4	25	1	0	3	async	upright	1	1.067	incongruent
4	26	1	0	3	sync	upright	1	1.274	incongruent
4	27	0	1	3	async	scrambled	1	1.277	incongruent
4	28	1	1	1	async	scrambled	1	1.455	congruent
4	29	1	0	3	async	scrambled	1	1.049	incongruent
4	30	0	0	3	sync	scrambled	1	1.264	congruent
4	31	1	0	1	sync	upright	1	1.347	incongruent
4	32	0	1	2	sync	upright	1	1.198	incongruent
4	33	1	1	1	async	upright	1	1.408	congruent
4	34	0	1	1	async	upright	1	1.366	incongruent
4	35	0	0	3	sync	upright	1	1.241	congruent
4	36	1	1	2	async	upright	1	1.228	congruent
4	37	1	1	1	sync	scrambled	1	1.399	congruent
4	38	0	0	3	async	upright	1	0.952	congruent
4	39	0	0	1	async	upright	1	1.377	congruent
4	40	1	0	3	async	upright	1	0.809	incongruent
4	41	0	0	3	async	scrambled	1	0.708	congruent
4	42	0	0	1	sync	scrambled	1	1.282	congruent
4	43	1	1	2	sync	upright	1	1.305	congruent
4	44	1	0	1	async	scrambled	1	1.560	incongruent
4	45	0	0	1	async	upright	1	1.373	congruent
4	46	0	1	1	async	upright	1	1.247	incongruent
4	47	1	0	3	async	upright	1	0.856	incongruent
4	48	0	0	1	sync	upright	1	1.291	congruent
4	49	1	1	2	async	upright	1	1.380	congruent
4	50	0	1	3	async	upright	1	1.321	incongruent
4	51	0	1	2	async	scrambled	1	1.364	incongruent
4	52	1	1	2	async	scrambled	1	1.336	congruent
4	53	0	1	2	async	scrambled	1	1.198	incongruent
4	54	1	0	3	sync	upright	1	1.089	incongruent
4	55	1	1	2	async	upright	1	1.402	congruent
4	56	0	0	3	async	upright	1	0.884	congruent
4	57	1	1	2	sync	scrambled	1	1.498	congruent
4	58	1	1	3	async	scrambled	1	0.912	congruent
4	59	1	0	2	sync	upright	1	0.987	incongruent
4	60	0	1	1	sync	scrambled	1	1.394	incongruent
4	61	0	1	1	sync	upright	1	1.460	incongruent
4	62	0	0	3	async	scrambled	1	1.015	congruent
4	63	0	0	2	sync	scrambled	1	1.251	congruent
4	64	1	1	2	async	scrambled	1	1.356	congruent
4	65	1	0	3	async	upright	1	0.920	incongruent
4	66	1	0	2	async	upright	0	1.273	incongruent
4	67	1	0	2	async	scrambled	1	1.653	incongruent
4	68	0	0	2	sync	upright	1	1.292	congruent
4	69	0	1	1	async	upright	1	1.071	incongruent
4	70	0	0	1	sync	scrambled	1	1.329	congruent
4	71	1	0	1	async	upright	1	1.262	incongruent
4	72	0	0	3	sync	scrambled	1	1.350	congruent
4	73	0	1	1	sync	upright	1	2.000	incongruent
4	74	1	0	2	async	scrambled	1	1.102	incongruent
4	75	0	0	2	async	upright	1	1.011	congruent
4	76	1	0	2	sync	scrambled	1	1.268	incongruent
4	77	0	1	2	sync	scrambled	1	1.318	incongruent
4	78	0	0	2	sync	upright	1	1.165	congruent
4	79	0	1	1	sync	scrambled	1	1.491	incongruent
4	80	0	1	3	sync	scrambled	1	1.187	incongruent
5	1	0	0	3	sync	upright	1	1.620	congruent
5	2	0	0	1	async	scrambled	1	1.482	congruent
5	3	0	1	3	sync	scrambled	1	1.260	incongruent
5	4	1	1	1	sync	upright	1	1.581	congruent
5	5	0	1	3	sync	scrambled	1	1.192	incongruent
5	6	0	1	2	async	upright	1	1.348	incongruent
5	7	0	1	1	async	scrambled	1	1.296	incongruent
5	8	1	0	2	sync	scrambled	1	1.237	incongruent
5	9	0	1	3	sync	upright	1	1.141	incongruent
5	10	0	1	3	async	upright	1	1.084	incongruent
5	11	0	0	1	async	scrambled	1	1.460	congruent
5	12	0	1	2	async	scrambled	1	1.303	incongruent
5	13	0	1	2	sync	upright	1	1.362	incongruent
5	14	1	1	2	async	upright	1	1.334	congruent
5	15	1	0	1	sync	scrambled	1	1.418	incongruent
5	16	0	1	1	async	upright	1	1.326	incongruent
5	17	0	0	3	sync	scrambled	1	1.318	congruent
5	18	1	0	1	sync	scrambled	1	1.393	incongruent
5	19	1	0	3	async	scrambled	1	0.977	incongruent
5	20	0	1	1	sync	upright	1	1.602	incongruent
5	21	0	0	1	sync	scrambled	1	1.363	congruent
5	22	0	0	2	sync	scrambled	1	1.212	congruent
5	23	0	0	3	sync	upright	1	1.075	congruent
5	24	1	0	1	sync	scrambled	1	1.143	incongruent
5	25	1	0	2	sync	scrambled	1	1.117	incongruent
5	26	0	0	1	sync	scrambled	1	1.009	congruent
5	27	1	1	2	sync	upright	1	1.286	congruent
5	28	1	0	2	async	upright	1	1.213	incongruent
5	29	1	1	1	sync	upright	1	1.571	congruent
5	30	0	1	3	async	scrambled	1	1.235	incongruent
5	31	0	0	2	sync	scrambled	1	1.024	congruent
5	32	1	0	2	sync	upright	1	0.995	incongruent
5	33	1	0	1	async	upright	1	1.224	incongruent
5	34	1	0	1	sync	upright	1	1.162	incongruent
5	35	0	1	3	async	upright	1	1.080	incongruent
5	36	1	1	1	sync	upright	1	1.110	congruent
5	37	0	0	2	async	upright	1	0.861	congruent
5	38	1	1	2	sync	scrambled	1	1.096	congruent
5	39	0	0	1	sync	scrambled	1	1.275	congruent
5	40	0	0	3	async	scrambled	1	0.919	congruent
5	41	1	1	1	async	upright	1	1.238	congruent
5	42	1	0	1	async	upright	1	1.515	incongruent
5	43	1	0	2	async	upright	1	1.267	incongruent
5	44	0	1	3	sync	scrambled	1	1.242	incongruent
5	45	0	0	2	sync	upright	1	1.120	congruent
5	46	0	1	2	async	scrambled	0	1.078	incongruent
5	47	0	1	1	sync	upright	1	1.644	incongruent
5	48	1	1	1	async	scrambled	1	1.529	congruent
5	49	0	1	2	async	upright	1	0.993	incongruent
5	50	1	1	3	async	upright	1	0.983	congruent
5	51	1	1	1	async	upright	1	1.373	congruent
5	52	1	0	3	async	upright	1	0.874	incongruent
5	53	1	0	1	sync	scrambled	1	1.300	incongruent
5	54	0	1	3	sync	upright	1	1.275	incongruent
5	55	0	0	2	async	scrambled	1	1.012	congruent
5	56	1	1	1	sync	upright	1	1.320	congruent
5	57	0	1	1	async	scrambled	1	1.554	incongruent
5	58	1	0	2	sync	upright	1	1.268	incongruent
5	59	1	0	3	async	scrambled	1	0.966	incongruent
5	60	1	0	2	sync	scrambled	1	1.250	incongruent
5	61	1	0	1	sync	upright	1	1.107	incongruent
5	62	0	0	2	sync	scrambled	1	1.125	congruent
5	63	0	0	1	async	scrambled	1	1.413	congruent
5	64	0	1	2	sync	scrambled	1	1.124	incongruent
5	65	1	1	2	async	scrambled	1	1.349	congruent
5	66	0	0	2	sync	scrambled	1	1.139	congruent
5	67	1	1	3	sync	scrambled	1	1.085	congruent
5	68	0	0	3	sync	upright	1	1.030	congruent
5	69	1	1	2	sync	scrambled	1	0.958	congruent
5	70	1	0	1	async	upright	1	1.252	incongruent
5	71	0	0	3	async	upright	1	0.858	congruent
5	72	0	1	2	sync	upright	1	1.187	incongruent
5	73	0	1	3	async	upright	1	1.072	incongruent
5	74	0	1	2	async	upright	1	1.029	incongruent
5	75	0	0	2	sync	upright	1	1.192	congruent
5	76	1	0	3	async	scrambled	1	1.088	incongruent
5	77	1	1	3	async	scrambled	1	1.113	congruent
5	78	0	0	2	async	upright	1	0.931	congruent
5	79	0	0	1	async	upright	1	1.455	congruent
5	80	0	1	1	sync	scrambled	1	1.672	incongruent
6	1	0	0	2	sync	upright	1	1.323	congruent
6	2	1	1	1	async	scrambled	1	1.656	congruent
6	3	1	1	3	async	scrambled	1	0.965	congruent
6	4	1	1	1	sync	upright	1	0.896	congruent
6	5	1	1	3	async	scrambled	1	0.916	congruent
6	6	0	0	2	async	scrambled	1	0.880	congruent
6	7	0	0	2	sync	upright	1	1.027	congruent
6	8	1	1	3	sync	upright	1	1.261	congruent
6	9	0	0	2	sync	upright	1	1.156	congruent
6	10	0	1	3	sync	scrambled	1	1.212	incongruent
6	11	1	1	3	sync	upright	1	1.119	congruent
6	12	1	0	1	sync	upright	1	1.013	incongruent
6	13	0	0	1	sync	upright	1	1.242	congruent
6	14	0	1	1	async	scrambled	1	1.394	incongruent
6	15	0	0	2	async	upright	1	0.951	congruent
6	16	0	0	3	async	scrambled	1	1.058	congruent
6	17	0	0	1	sync	upright	1	1.072	congruent
6	18	1	0	1	async	upright	1	1.237	incongruent
6	19	0	0	2	async	scrambled	1	0.807	congruent
6	20	1	1	3	async	scrambled	1	1.017	congruent
6	21	1	1	2	sync	scrambled	1	1.189	congruent
6	22	1	1	2	sync	upright	1	1.295	congruent
6	23	0	0	2	sync	upright	1	1.037	congruent
6	24	1	1	3	async	upright	1	1.032	congruent
6	25	1	0	3	sync	upright	1	0.931	incongruent
6	26	1	1	3	async	scrambled	1	1.020	congruent
6	27	1	1	3	sync	upright	1	1.138	congruent
6	28	0	0	3	async	upright	1	0.890	congruent
6	29	1	0	1	async	upright	1	1.282	incongruent
6	30	1	1	3	sync	scrambled	1	1.198	congruent
6	31	0	0	3	async	upright	1	0.818	congruent
6	32	0	1	1	sync	upright	1	1.312	incongruent
6	33	0	1	1	async	upright	1	1.106	incongruent
6	34	1	1	1	async	upright	1	0.981	congruent
6	35	1	0	1	async	scrambled	1	1.365	incongruent
6	36	0	1	2	async	upright	1	1.386	incongruent
6	37	1	0	2	async	upright	1	1.101	incongruent
6	38	0	0	1	async	scrambled	1	1.317	congruent
6	39	0	0	3	async	scrambled	1	1.222	congruent
6	40	0	1	1	async	scrambled	1	1.221	incongruent
6	41	0	0	1	sync	scrambled	1	1.599	congruent
6	42	0	1	2	sync	scrambled	1	1.168	incongruent
6	43	0	1	3	async	scrambled	1	1.120	incongruent
6	44	0	0	1	sync	scrambled	1	1.298	congruent
6	45	1	1	2	sync	upright	1	1.119	congruent
6	46	0	0	1	sync	upright	1	1.069	congruent
6	47	0	0	3	async	scrambled	1	0.963	congruent
6	48	1	1	3	async	upright	1	0.962	congruent
6	49	1	0	1	async	upright	1	1.219	incongruent
6	50	1	0	3	async	scrambled	1	0.850	incongruent
6	51	1	1	2	sync	upright	1	1.556	congruent
6	52	0	1	1	async	scrambled	1	1.342	incongruent
6	53	0	0	1	async	upright	1	1.366	congruent
6	54	0	1	3	sync	upright	1	1.254	incongruent
6	55	0	1	3	async	scrambled	1	1.153	incongruent
6	56	1	1	2	async	upright	1	1.274	congruent
6	57	1	0	1	sync	scrambled	1	1.074	incongruent
6	58	1	0	3	async	scrambled	1	0.812	incongruent
6	59	0	1	2	async	scrambled	0	1.081	incongruent
6	60	1	0	3	async	upright	1	0.987	incongruent
6	61	0	1	1	sync	upright	1	1.758	incongruent
6	62	0	1	1	async	scrambled	1	1.405	incongruent
6	63	0	0	2	sync	scrambled	1	1.210	congruent
6	64	1	1	2	async	scrambled	1	1.430	congruent
6	65	1	1	2	sync	upright	1	1.042	congruent
6	66	1	1	1	async	scrambled	1	1.311	congruent
6	67	1	0	2	sync	scrambled	1	1.176	incongruent
6	68	1	1	3	async	upright	1	1.035	congruent
6	69	0	0	3	async	upright	1	0.899	congruent
6	70	0	0	3	async	scrambled	1	0.829	congruent
6	71	1	1	3	sync	scrambled	1	1.315	congruent
6	72	0	1	2	async	upright	1	1.294	incongruent
6	73	0	1	1	async	scrambled	1	1.439	incongruent
6	74	1	0	1	sync	scrambled	1	1.432	incongruent
6	75	1	0	2	async	scrambled	0	1.620	incongruent
6	76	1	0	1	sync	upright	1	1.045	incongruent
6	77	0	1	3	sync	scrambled	1	1.248	incongruent
6	78	0	0	3	sync	upright	1	1.009	congruent
6	79	0	1	2	async	upright	0	0.939	incongruent
6	80	1	1	1	async	scrambled	1	1.051	congruent
7	1	1	0	1	async	scrambled	1	1.396	incongruent
7	2	1	1	2	sync	upright	1	1.144	congruent
7	3	1	0	3	sync	scrambled	1	1.346	incongruent
7	4	0	1	2	async	scrambled	1	1.648	incongruent
7	5	0	0	2	async	upright	1	0.934	congruent
7	6	1	1	2	sync	scrambled	1	1.285	congruent
7	7	0	0	2	sync	upright	1	1.163	congruent
7	8	0	1	3	sync	upright	1	1.091	incongruent
7	9	0	1	1	async	upright	1	0.990	incongruent
7	10	1	0	2	sync	upright	1	1.152	incongruent
7	11	0	1	2	sync	scrambled	1	1.163	incongruent
7	12	1	1	2	async	upright	1	1.272	congruent
7	13	1	1	3	sync	upright	1	1.224	congruent
7	14	1	0	3	sync	upright	1	1.450	incongruent
7	15	1	0	2	sync	scrambled	1	1.281	incongruent
7	16	1	1	3	sync	scrambled	1	1.292	congruent
7	17	1	0	1	async	scrambled	1	1.443	incongruent
7	18	1	1	2	sync	scrambled	1	1.398	congruent
7	19	0	0	1	async	scrambled	1	1.362	congruent
7	20	1	1	3	async	scrambled	1	1.200	congruent
7	21	1	0	2	sync	upright	1	1.024	incongruent
7	22	0	1	3	async	upright	1	1.168	incongruent
7	23	1	0	1	async	scrambled	1	1.245	incongruent
7	24	0	0	3	async	scrambled	1	0.827	congruent
7	25	0	1	1	sync	scrambled	1	1.206	incongruent
7	26	1	0	1	async	upright	1	1.174	incongruent
7	27	1	1	1	sync	scrambled	1	1.528	congruent
7	28	1	1	1	async	scrambled	1	1.296	congruent
7	29	1	1	3	async	upright	1	1.066	congruent
7	30	1	1	3	async	scrambled	1	1.018	congruent
7	31	1	0	2	sync	upright	1	1.131	incongruent
7	32	1	1	1	async	scrambled	1	1.312	congruent
7	33	1	0	2	sync	scrambled	1	1.183	incongruent
7	34	0	1	1	sync	upright	1	1.371	incongruent
7	35	1	0	1	sync	upright	1	1.229	incongruent
7	36	1	1	1	sync	upright	1	1.325	congruent
7	37	0	1	2	sync	scrambled	1	1.214	incongruent
7	38	1	1	3	async	scrambled	1	1.151	congruent
7	39	1	1	3	async	scrambled	1	1.098	congruent
7	40	1	1	3	async	scrambled	1	0.948	congruent
7	41	1	0	3	sync	scrambled	1	1.211	incongruent
7	42	0	1	1	sync	scrambled	1	1.545	incongruent
7	43	0	1	3	sync	upright	1	1.091	incongruent
7	44	1	0	1	async	upright	1	1.194	incongruent
7	45	0	0	1	async	upright	1	1.314	congruent
7	46	1	1	1	sync	scrambled	1	1.260	congruent
7	47	0	1	1	async	scrambled	1	1.148	incongruent
7	48	1	1	2	sync	scrambled	1	1.116	congruent
7	49	1	0	2	sync	scrambled	1	0.927	incongruent
7	50	0	0	3	async	upright	1	0.806	congruent
7	51	0	1	2	sync	scrambled	1	1.240	incongruent
7	52	0	1	2	sync	upright	1	0.963	incongruent
7	53	1	0	2	async	scrambled	1	1.205	incongruent
7	54	0	1	2	async	scrambled	1	1.095	incongruent
7	55	0	1	2	async	scrambled	1	0.895	incongruent
7	56	1	0	1	async	upright	1	1.174	incongruent
7	57	0	1	1	async	scrambled	1	1.225	incongruent
7	58	1	0	3	sync	scrambled	1	1.365	incongruent
7	59	0	1	3	async	scrambled	1	0.906	incongruent
7	60	0	0	2	sync	upright	1	1.034	congruent
7	61	1	1	1	sync	scrambled	0	1.114	congruent
7	62	1	0	3	async	upright	1	0.927	incongruent
7	63	0	0	1	sync	scrambled	1	1.096	congruent
7	64	0	0	1	async	scrambled	1	1.426	congruent
7	65	1	1	2	async	scrambled	1	1.412	congruent
7	66	0	0	2	sync	upright	1	1.143	congruent
7	67	1	0	2	sync	scrambled	1	1.159	incongruent
7	68	1	0	1	sync	upright	1	1.169	incongruent
7	69	0	1	3	sync	scrambled	1	1.164	incongruent
7	70	1	1	3	async	scrambled	1	1.156	congruent
7	71	1	1	2	async	upright	1	1.130	congruent
7	72	0	1	2	async	scrambled	1	1.152	incongruent
7	73	1	0	3	async	upright	1	0.902	incongruent
7	74	0	1	1	async	scrambled	1	1.244	incongruent
7	75	0	0	3	sync	scrambled	1	1.292	congruent
7	76	1	1	1	async	upright	1	1.092	congruent
7	77	1	1	2	async	scrambled	1	1.181	congruent
7	78	1	0	2	sync	upright	1	1.362	incongruent
7	79	1	1	3	sync	scrambled	1	1.172	congruent
7	80	1	1	2	async	scrambled	1	1.136	congruent
8	1	1	1	3	sync	scrambled	1	1.496	congruent
8	2	0	0	1	sync	scrambled	1	1.602	congruent
8	3	0	1	1	sync	scrambled	1	1.483	incongruent
8	4	1	0	3	sync	upright	1	0.985	incongruent
8	5	0	1	1	sync	upright	1	1.600	incongruent
8	6	1	1	2	async	upright	1	1.307	congruent
8	7	0	1	3	async	scrambled	1	1.203	incongruent
8	8	1	0	2	async	upright	1	1.307	incongruent
8	9	0	1	1	async	upright	1	1.408	incongruent
8	10	0	1	2	async	upright	1	1.504	incongruent
8	11	1	1	2	sync	scrambled	1	1.180	congruent
8	12	0	1	1	async	upright	1	1.030	incongruent
8	13	1	1	2	async	scrambled	1	1.213	congruent
8	14	0	1	1	async	upright	1	0.932	incongruent
8	15	1	0	2	sync	upright	1	1.162	incongruent
8	16	0	0	3	sync	upright	1	1.074	congruent
8	17	0	1	1	async	scrambled	1	1.273	incongruent
8	18	0	0	1	sync	scrambled	1	1.196	congruent
8	19	1	0	1	sync	upright	1	1.221	incongruent
8	20	0	0	3	sync	upright	1	1.051	congruent
8	21	1	0	2	sync	scrambled	1	1.374	incongruent
8	22	1	0	2	async	upright	1	1.427	incongruent
8	23	0	1	2	async	scrambled	1	1.083	incongruent
8	24	1	1	1	sync	scrambled	1	1.511	congruent
8	25	1	0	2	async	upright	1	1.263	incongruent
8	26	1	0	2	async	scrambled	1	1.323	incongruent
8	27	1	0	3	async	scrambled	1	1.205	incongruent
8	28	1	0	3	sync	scrambled	1	1.052	incongruent
8	29	0	1	2	sync	upright	1	1.406	incongruent
8	30	0	1	3	async	scrambled	1	1.298	incongruent
8	31	0	0	2	sync	scrambled	1	1.252	congruent
8	32	1	1	2	async	scrambled	1	1.375	congruent
8	33	0	1	3	async	upright	1	0.979	incongruent
8	34	0	1	1	sync	upright	1	1.596	incongruent
8	35	1	1	1	sync	scrambled	1	1.357	congruent
8	36	1	0	1	async	scrambled	1	1.621	incongruent
8	37	1	0	3	sync	upright	1	1.290	incongruent
8	38	1	1	1	sync	upright	1	1.799	congruent
8	39	0	0	2	async	upright	1	1.026	congruent
8	40	0	1	3	sync	scrambled	1	1.140	incongruent
8	41	1	0	3	sync	upright	1	1.049	incongruent
8	42	1	1	2	sync	scrambled	1	1.253	congruent
8	43	1	1	1	sync	scrambled	1	1.571	congruent
8	44	1	0	1	async	scrambled	1	1.395	incongruent
8	45	0	1	1	async	upright	1	1.179	incongruent
8	46	1	1	1	async	upright	1	0.926	congruent
8	47	0	1	1	async	scrambled	1	0.939	incongruent
8	48	1	1	3	async	upright	1	1.221	congruent
8	49	0	1	2	sync	upright	1	1.656	incongruent
8	50	0	1	1	async	upright	1	1.203	incongruent
8	51	1	1	3	sync	upright	1	1.298	congruent
8	52	0	1	2	sync	upright	1	1.213	incongruent
8	53	0	1	2	async	upright	1	1.110	incongruent
8	54	0	1	2	async	upright	1	1.491	incongruent
8	55	0	0	3	async	upright	1	0.879	congruent
8	56	0	0	1	async	scrambled	1	1.091	congruent
8	57	1	1	3	sync	upright	1	1.255	congruent
8	58	1	0	1	sync	scrambled	1	1.324	incongruent
8	59	1	1	2	sync	upright	1	1.178	congruent
8	60	1	0	3	sync	scrambled	1	1.262	incongruent
8	61	1	1	3	sync	upright	1	1.297	congruent
8	62	0	1	2	async	upright	1	1.451	incongruent
8	63	1	0	3	async	upright	1	0.847	incongruent
8	64	1	0	1	sync	scrambled	1	1.443	incongruent
8	65	0	0	1	async	upright	1	1.206	congruent
8	66	1	1	1	async	upright	1	1.041	congruent
8	67	0	1	3	sync	scrambled	1	1.318	incongruent
8	68	0	1	2	async	scrambled	1	1.053	incongruent
8	69	1	0	2	sync	upright	1	1.430	incongruent
8	70	1	1	2	sync	scrambled	1	1.394	congruent
8	71	1	1	1	sync	scrambled	1	1.389	congruent
8	72	1	0	2	async	upright	1	1.153	incongruent
8	73	0	1	1	sync	upright	1	1.687	incongruent
8	74	1	1	1	async	upright	1	1.111	congruent
8	75	1	1	2	async	scrambled	1	1.109	congruent
8	76	0	1	2	sync	scrambled	1	1.283	incongruent
8	77	1	0	1	async	scrambled	1	1.170	incongruent
8	78	0	0	1	async	scrambled	1	1.322	congruent
8	79	1	1	1	sync	upright	1	1.552	congruent
8	80	0	0	2	sync	upright	1	1.338	congruent
9	1	0	0	3	sync	upright	1	1.337	congruent
9	2	1	0	2	sync	scrambled	1	1.225	incongruent
9	3	0	1	1	async	scrambled	1	1.504	incongruent
9	4	1	1	3	sync	scrambled	1	1.169	congruent
9	5	1	1	3	sync	upright	1	1.145	congruent
9	6	1	0	1	sync	upright	1	1.375	incongruent
9	7	0	1	1	sync	scrambled	1	1.538	incongruent
9	8	1	1	2	sync	upright	1	1.194	congruent
9	9	1	1	1	async	scrambled	1	1.316	congruent
9	10	1	0	2	async	scrambled	1	1.507	incongruent
9	11	0	0	1	sync	upright	1	1.122	congruent
9	12	0	1	1	sync	upright	1	1.115	incongruent
9	13	1	1	1	async	upright	1	1.111	congruent
9	14	1	0	3	sync	scrambled	0	1.722	incongruent
9	15	0	0	2	sync	upright	1	1.302	congruent
9	16	1	0	2	async	upright	1	1.087	incongruent
9	17	0	0	3	async	upright	1	0.965	congruent
9	18	1	0	1	async	scrambled	1	1.104	incongruent
9	19	1	0	3	sync	scrambled	1	0.934	incongruent
9	20	0	1	3	sync	scrambled	1	0.958	incongruent
9	21	0	0	1	async	upright	1	1.091	congruent
9	22	0	1	2	async	upright	1	1.186	incongruent
9	23	1	1	2	async	upright	0	1.032	congruent
9	24	1	0	2	async	upright	1	1.168	incongruent
9	25	1	0	2	sync	upright	1	1.293	incongruent
9	26	1	1	2	async	upright	1	1.005	congruent
9	27	0	0	3	async	scrambled	1	1.032	congruent
9	28	1	0	2	sync	scrambled	1	1.160	incongruent
9	29	1	0	3	sync	upright	1	1.698	incongruent
9	30	1	0	1	sync	scrambled	1	1.197	incongruent
9	31	1	0	3	sync	upright	1	0.993	incongruent
9	32	1	1	2	async	upright	1	1.131	congruent
9	33	1	0	2	async	scrambled	1	1.272	incongruent
9	34	1	0	1	async	scrambled	1	1.066	incongruent
9	35	1	0	1	async	upright	1	1.062	incongruent
9	36	0	0	2	async	scrambled	1	0.946	congruent
9	37	0	0	1	sync	scrambled	1	1.343	congruent
9	38	1	1	2	sync	upright	1	1.221	congruent
9	39	0	1	2	sync	scrambled	1	1.190	incongruent
9	40	1	0	3	async	upright	1	1.009	incongruent
9	41	0	1	3	async	upright	1	1.241	incongruent
9	42	1	1	1	sync	upright	1	1.423	congruent
9	43	0	1	3	async	upright	1	0.986	incongruent
9	44	0	0	3	sync	scrambled	1	1.465	congruent
9	45	0	1	3	sync	upright	1	1.128	incongruent
9	46	0	0	3	async	upright	1	0.930	congruent
9	47	0	0	2	sync	upright	1	1.198	congruent
9	48	1	1	1	sync	scrambled	1	1.344	congruent
9	49	0	1	2	sync	upright	1	1.067	incongruent
9	50	1	1	3	sync	upright	1	0.854	congruent
9	51	0	1	1	sync	upright	1	0.841	incongruent
9	52	1	1	2	sync	upright	1	0.772	congruent
9	53	0	0	3	async	upright	1	0.796	congruent
9	54	1	0	3	sync	scrambled	1	1.189	incongruent
9	55	1	1	1	async	scrambled	1	0.950	congruent
9	56	1	1	3	sync	upright	1	1.239	congruent
9	57	1	1	1	sync	upright	1	0.971	congruent
9	58	1	1	1	async	scrambled	1	0.956	congruent
9	59	1	1	3	async	scrambled	1	1.675	congruent
9	60	0	1	2	sync	upright	1	1.352	incongruent
9	61	0	0	3	sync	scrambled	1	1.276	congruent
9	62	0	1	1	async	upright	1	0.959	incongruent
9	63	1	1	1	sync	upright	1	1.539	congruent
9	64	0	1	3	sync	scrambled	1	1.197	incongruent
9	65	1	0	1	async	upright	1	1.164	incongruent
9	66	0	0	3	async	scrambled	1	0.997	congruent
9	67	1	0	3	sync	upright	1	1.196	incongruent
9	68	1	0	1	async	upright	1	1.259	incongruent
9	69	1	1	3	async	scrambled	1	1.033	congruent
9	70	1	1	3	async	upright	1	0.987	congruent
9	71	0	1	3	async	upright	1	1.300	incongruent
9	72	0	1	1	sync	upright	1	1.521	incongruent
9	73	0	1	3	async	scrambled	1	1.002	incongruent
9	74	1	1	3	sync	scrambled	1	1.039	congruent
9	75	0	1	1	sync	upright	1	1.149	incongruent
9	76	1	0	3	sync	scrambled	1	1.340	incongruent
9	77	0	1	2	sync	upright	1	1.225	incongruent
9	78	1	0	2	sync	scrambled	1	1.034	incongruent
9	79	0	1	1	sync	scrambled	1	1.191	incongruent
9	80	1	1	1	sync	upright	1	0.927	congruent
10	1	0	1	1	sync	scrambled	1	1.603	incongruent
10	2	0	0	3	sync	upright	1	1.151	congruent
10	3	0	1	1	async	upright	1	1.102	incongruent
10	4	1	0	1	sync	scrambled	1	1.148	incongruent
10	5	1	0	3	sync	upright	1	0.824	incongruent
10	6	1	1	2	sync	scrambled	1	0.980	congruent
10	7	0	0	1	async	scrambled	1	1.121	congruent
10	8	0	1	2	async	upright	1	1.209	incongruent
10	9	0	0	2	async	upright	1	0.925	congruent
10	10	0	0	1	sync	upright	1	1.073	congruent
10	11	1	0	2	async	scrambled	1	1.056	incongruent
10	12	0	1	1	async	upright	1	1.103	incongruent
10	13	0	0	2	sync	upright	1	1.164	congruent
10	14	0	0	1	async	scrambled	1	1.152	congruent
10	15	1	1	3	async	upright	1	1.157	congruent
10	16	0	1	3	async	scrambled	1	1.091	incongruent
10	17	1	0	2	async	upright	1	1.188	incongruent
10	18	0	1	2	async	scrambled	1	1.268	incongruent
10	19	0	0	3	sync	scrambled	1	1.203	congruent
10	20	1	0	1	async	scrambled	1	1.068	incongruent
10	21	0	1	2	async	scrambled	1	1.037	incongruent
10	22	0	0	1	sync	upright	1	1.098	congruent
10	23	0	0	1	async	upright	1	1.133	congruent
10	24	0	0	3	sync	upright	1	1.222	congruent
10	25	0	1	3	async	scrambled	1	1.251	incongruent
10	26	1	1	2	async	upright	1	1.203	congruent
10	27	0	0	1	async	upright	1	1.082	congruent
10	28	0	0	1	async	scrambled	1	1.389	congruent
10	29	1	1	2	async	upright	1	1.056	congruent
10	30	0	1	1	sync	scrambled	1	1.509	incongruent
10	31	0	1	3	async	upright	1	1.186	incongruent
10	32	0	1	3	sync	upright	1	1.223	incongruent
10	33	0	0	3	async	upright	1	0.917	congruent
10	34	1	0	2	async	scrambled	1	1.144	incongruent
10	35	1	0	2	sync	upright	1	1.204	incongruent
10	36	0	0	2	sync	scrambled	1	1.094	congruent
10	37	0	1	3	async	scrambled	1	1.000	incongruent
10	38	0	1	2	sync	scrambled	1	1.097	incongruent
10	39	0	0	2	sync	scrambled	1	1.194	congruent
10	40	0	0	1	async	scrambled	1	1.395	congruent
10	41	0	1	2	sync	upright	1	1.473	incongruent
10	42	0	0	2	async	scrambled	1	0.898	congruent
10	43	0	1	2	sync	scrambled	1	1.132	incongruent
10	44	0	0	1	async	scrambled	1	1.114	congruent
10	45	0	1	2	async	upright	1	1.292	incongruent
10	46	1	1	3	sync	upright	1	1.185	congruent
10	47	0	1	2	async	upright	1	1.491	incongruent
10	48	0	0	3	async	upright	1	0.855	congruent
10	49	0	1	3	sync	scrambled	1	1.062	incongruent
10	50	0	0	1	async	upright	1	0.884	congruent
10	51	0	1	3	sync	scrambled	1	1.202	incongruent
10	52	0	1	1	async	upright	1	1.056	incongruent
10	53	1	1	1	sync	upright	0	1.262	congruent
10	54	0	0	1	sync	upright	1	1.085	congruent
10	55	0	1	1	async	scrambled	1	1.252	incongruent
10	56	1	1	3	async	scrambled	1	1.250	congruent
10	57	1	1	3	async	scrambled	1	0.975	congruent
10	58	0	0	3	async	upright	1	0.791	congruent
10	59	1	0	3	async	upright	1	0.843	incongruent
10	60	1	1	2	async	scrambled	1	1.750	congruent
10	61	1	0	2	async	upright	1	1.080	incongruent
10	62	0	1	2	sync	scrambled	1	1.301	incongruent
10	63	1	1	3	sync	upright	1	1.069	congruent
10	64	1	1	1	async	scrambled	1	1.034	congruent
10	65	0	1	2	sync	scrambled	1	1.208	incongruent
10	66	0	0	2	sync	scrambled	1	1.104	congruent
10	67	1	0	3	async	upright	1	0.942	incongruent
10	68	0	1	1	async	upright	1	0.980	incongruent
10	69	1	1	2	async	scrambled	1	0.961	congruent
10	70	0	0	2	sync	upright	1	1.252	congruent
10	71	0	0	1	sync	scrambled	1	1.089	congruent
10	72	0	0	2	async	scrambled	1	0.963	congruent
10	73	1	0	1	sync	upright	1	1.051	incongruent
10	74	1	1	3	sync	scrambled	1	1.085	congruent
10	75	0	1	3	sync	upright	1	0.888	incongruent
10	76	1	0	1	sync	upright	1	1.179	incongruent
10	77	0	1	3	async	scrambled	1	1.190	incongruent
10	78	0	1	3	sync	upright	1	0.937	incongruent
10	79	0	1	2	sync	upright	1	1.065	incongruent
10	80	0	0	2	sync	scrambled	1	1.328	congruent